{
  "resourceType": "Bundle",
  "id": "a0470300-0000-0000-0002-000000000000",
  "meta": {
    "profile": [
      "https://fhir.kbv.de/StructureDefinition/KBV_PR_ERP_Bundle|1.0.2"
    ]
  },
  "identifier": {
    "system": "https://gematik.de/fhir/NamingSystem/PrescriptionID",
    "value": "160.000.000.000.838.65"
  },
  "type": "document",
  "timestamp": "2021-06-01T16:49:33.470+02:00",
  "entry": [
    {
      "fullUrl": "https://e-rezept.de/Composition/c504ae01-3c05-4210-a865-97c8dd38bd39",
      "resource": {
        "resourceType": "Composition",
        "id": "c504ae01-3c05-4210-a865-97c8dd38bd39",
        "meta": {
          "profile": [
            "https://fhir.kbv.de/StructureDefinition/KBV_PR_ERP_Composition|1.0.2"
          ]
        },
        "extension": [
          {
            "url": "https://fhir.kbv.de/StructureDefinition/KBV_EX_FOR_Legal_basis",
            "valueCoding": {
              "system": "https://fhir.kbv.de/CodeSystem/KBV_CS_SFHIR_KBV_STATUSKENNZEICHEN",
              "code": "00"
            }
          }
        ],
        "status": "final",
        "type": {
          "coding": [
            {
              "system": "https://fhir.kbv.de/CodeSystem/KBV_CS_SFHIR_KBV_FORMULAR_ART",
              "code": "e16A"
            }
          ]
        },
        "subject": {
          "reference": "Patient/2de90026-3075-44d8-9659-074ff597b915"
        },
        "date": "2021-06-01T16:49:33+02:00",
        "author": [
          {
            "reference": "Practitioner/4ffde3c1-dc01-4cb5-aa7d-769ef1c9daca",
            "type": "Practitioner"
          },
          {
            "type": "Device",
            "identifier": {
              "system": "https://fhir.kbv.de/NamingSystem/KBV_NS_FOR_Pruefnummer",
              "value": "Y/400/1910/36/346"
            }
          }
        ],
        "title": "elektronische Arzneimittelverordnung",
        "custodian": {
          "reference": "Organization/d003b037-e264-49b7-a83d-e998877d5b66"
        },
        "section": [
          {
            "code": {
              "coding": [
                {
                  "system": "https://fhir.kbv.de/CodeSystem/KBV_CS_ERP_Section_Type",
                  "code": "Prescription"
                }
              ]
            },
            "entry": [
              {
                "reference": "MedicationRequest/a6d12b38-7eae-40b2-a523-8d2f4820d99f"
              }
            ]
          },
          {
            "code": {
              "coding": [
                {
                  "system": "https://fhir.kbv.de/CodeSystem/KBV_CS_ERP_Section_Type",
                  "code": "Coverage"
                }
              ]
            },
            "entry": [
              {
                "reference": "Coverage/ede178d8-d0de-40a7-9781-de2a1927b434"
              }
            ]
          },
          {
            "code": {
              "coding": [
                {
                  "system": "https://fhir.kbv.de/CodeSystem/KBV_CS_ERP_Section_Type",
                  "code": "FOR_PractitionerRole"
                }
              ]
            },
            "entry": [
              {
                "reference": "PractitionerRole/6e7d04be-4015-4b6e-a533-1f50536e7f91"
              }
            ]
          }
        ]
      }
    },
    {
      "fullUrl": "https://e-rezept.de/MedicationRequest/a6d12b38-7eae-40b2-a523-8d2f4820d99f",
      "resource": {
        "resourceType": "MedicationRequest",
        "id": "a6d12b38-7eae-40b2-a523-8d2f4820d99f",
        "meta": {
          "profile": [
            "https://fhir.kbv.de/StructureDefinition/KBV_PR_ERP_Prescription|1.0.2"
          ]
        },
        "extension": [
          {
            "url": "https://fhir.kbv.de/StructureDefinition/KBV_EX_ERP_StatusCoPayment",
            "valueCoding": {
              "system": "https://fhir.kbv.de/CodeSystem/KBV_CS_ERP_StatusCoPayment",
              "code": "0"
            }
          },
          {
            "url": "https://fhir.kbv.de/StructureDefinition/KBV_EX_ERP_EmergencyServicesFee",
            "valueBoolean": false
          },
          {
            "url": "https://fhir.kbv.de/StructureDefinition/KBV_EX_ERP_BVG",
            "valueBoolean": false
          },
          {
            "url": "https://fhir.kbv.de/StructureDefinition/KBV_EX_ERP_Accident",
            "extension": [
              {
                "url": "unfallkennzeichen",
                "valueCoding": {
                  "system": "https://fhir.kbv.de/CodeSystem/KBV_CS_FOR_Ursache_Type",
                  "code": "2"
                }
              },
              {
                "url": "unfallbetrieb",
                "valueString": "Dummy-Betrieb"
              },
              {
                "url": "unfalltag",
                "valueDate": "2021-06-01"
              }
            ]
          },
          {
            "url": "https://fhir.kbv.de/StructureDefinition/KBV_EX_ERP_Multiple_Prescription",
            "extension": [
              {
                "url": "Kennzeichen",
                "valueBoolean": false
              },
              {
                "url": "Nummerierung",
                "valueRatio": {
                  "numerator": {
                    "value": 0
                  },
                  "denominator": {
                    "value": 0
                  }
                }
              },
              {
                "url": "Zeitraum",
                "valuePeriod": {
                  "start": "2021-06-01T16:49:34+02:00",
                  "end": "2021-06-01T16:49:34+02:00"
                }
              }
            ]
          }
        ],
        "status": "active",
        "intent": "order",
        "medicationReference": {
          "reference": "Medication/e13a135a-4db5-4dc7-8ab3-b61dab9887c0"
        },
        "subject": {
          "reference": "Patient/2de90026-3075-44d8-9659-074ff597b915"
        },
        "authoredOn": "2000-01-01",
        "requester": {
          "reference": "Practitioner/4ffde3c1-dc01-4cb5-aa7d-769ef1c9daca"
        },
        "insurance": [
          {
            "reference": "Coverage/ede178d8-d0de-40a7-9781-de2a1927b434"
          }
        ],
        "dosageInstruction": [
          {
            "extension": [
              {
                "url": "https://fhir.kbv.de/StructureDefinition/KBV_EX_ERP_DosageFlag",
                "valueBoolean": true
              }
            ],
            "text": "1-0-1-0"
          }
        ],
        "dispenseRequest": {
          "validityPeriod": {
            "start": "2021-06-01T16:49:33+02:00",
            "end": "2021-06-01T16:49:33+02:00"
          },
          "quantity": {
            "value": 1,
            "system": "http://unitsofmeasure.org",
            "code": "{Package}"
          }
        },
        "substitution": {
          "allowedBoolean": true
        }
      }
    },
    {
      "fullUrl": "https://e-rezept.de/Medication/e13a135a-4db5-4dc7-8ab3-b61dab9887c0",
      "resource": {
        "resourceType": "Medication",
        "id": "e13a135a-4db5-4dc7-8ab3-b61dab9887c0",
        "meta": {
          "profile": [
            "https://fhir.kbv.de/StructureDefinition/KBV_PR_ERP_Medication_PZN|1.0.2"
          ]
        },
        "extension": [
          {
            "url": "https://fhir.kbv.de/StructureDefinition/KBV_EX_ERP_Medication_Category",
            "valueCoding": {
              "system": "https://fhir.kbv.de/CodeSystem/KBV_CS_ERP_Medication_Category",
              "code": "00"
            }
          },
          {
            "url": "https://fhir.kbv.de/StructureDefinition/KBV_EX_ERP_Medication_Vaccine",
            "valueBoolean": false
          }
        ],
        "code": {
          "coding": [
            {
              "system": "http://fhir.de/CodeSystem/ifa/pzn",
              "code": "06313728"
            }
          ],
          "text": "gesund"
        },
        "form": {
          "coding": [
            {
              "system": "https://fhir.kbv.de/CodeSystem/KBV_CS_SFHIR_KBV_DARREICHUNGSFORM",
              "code": "TAB"
            }
          ]
        },
        "amount": {
          "numerator": {
            "value": 12,
            "unit": "TAB",
            "system": "http://unitsofmeasure.org",
            "code": "{tbl}"
          },
          "denominator": {
            "value": 1
          }
        }
      }
    },
    {
      "fullUrl": "https://e-rezept.de/Coverage/ede178d8-d0de-40a7-9781-de2a1927b434",
      "resource": {
        "resourceType": "Coverage",
        "id": "ede178d8-d0de-40a7-9781-de2a1927b434",
        "meta": {
          "profile": [
            "https://fhir.kbv.de/StructureDefinition/KBV_PR_FOR_Coverage|1.0.3"
          ]
        },
        "extension": [
          {
            "url": "http://fhir.de/StructureDefinition/gkv/besondere-personengruppe",
            "valueCoding": {
              "system": "https://fhir.kbv.de/CodeSystem/KBV_CS_SFHIR_KBV_PERSONENGRUPPE",
              "code": "00"
            }
          },
          {
            "url": "http://fhir.de/StructureDefinition/gkv/dmp-kennzeichen",
            "valueCoding": {
              "system": "https://fhir.kbv.de/CodeSystem/KBV_CS_SFHIR_KBV_DMP",
              "code": "00"
            }
          },
          {
            "url": "http://fhir.de/StructureDefinition/gkv/wop",
            "valueCoding": {
              "system": "https://fhir.kbv.de/CodeSystem/KBV_CS_SFHIR_ITA_WOP",
              "code": "03"
            }
          },
          {
            "url": "http://fhir.de/StructureDefinition/gkv/versichertenart",
            "valueCoding": {
              "system": "https://fhir.kbv.de/CodeSystem/KBV_CS_SFHIR_KBV_VERSICHERTENSTATUS",
              "code": "1"
            }
          }
        ],
        "status": "active",
        "type": {
          "coding": [
            {
              "system": "https://fhir.kbv.de/CodeSystem/KBV_CS_SFHIR_KBV_VERSICHERTENSTATUS",
              "code": "GKV"
            }
          ]
        },
        "beneficiary": {
          "reference": "Patient/2de90026-3075-44d8-9659-074ff597b915"
        },
        "period": {
          "end": "2021-06-01"
        },
        "payor": [
          {
            "identifier": {
              "system": "http://fhir.de/NamingSystem/arge-ik/iknr",
              "value": "0"
            },
            "display": "test"
          }
        ]
      }
    },
    {
      "fullUrl": "https://e-rezept.de/Organization/d003b037-e264-49b7-a83d-e998877d5b66",
      "resource": {
        "resourceType": "Organization",
        "id": "d003b037-e264-49b7-a83d-e998877d5b66",
        "meta": {
          "profile": [
            "https://fhir.kbv.de/StructureDefinition/KBV_PR_FOR_Organization|1.0.3"
          ]
        },
        "identifier": [
          {
            "type": {
              "coding": [
                {
                  "system": "http://terminology.hl7.org/CodeSystem/v2-0203",
                  "code": "XX"
                }
              ]
            },
            "system": "http://fhir.de/NamingSystem/arge-ik/iknr",
            "value": "123456"
          }
        ],
        "telecom": [
          {
            "system": "phone",
            "value": "0301234567"
          }
        ]
      }
    },
    {
      "fullUrl": "https://e-rezept.de/Patient/2de90026-3075-44d8-9659-074ff597b915",
      "resource": {
        "resourceType": "Patient",
        "id": "2de90026-3075-44d8-9659-074ff597b915",
        "meta": {
          "profile": [
            "https://fhir.kbv.de/StructureDefinition/KBV_PR_FOR_Patient|1.0.3"
          ]
        },
        "identifier": [
          {
            "use": "official",
            "type": {
              "coding": [
                {
                  "system": "http://fhir.de/CodeSystem/identifier-type-de-basis",
                  "code": "GKV"
                }
              ]
            },
            "system": "http://fhir.de/NamingSystem/gkv/kvid-10",
            "value": "X110506918"
          }
        ],
        "name": [
          {
            "use": "official",
            "family": "Meier",
            "_family": {
              "extension": [
                {
                  "url": "http://hl7.org/fhir/StructureDefinition/humanname-own-name",
                  "valueString": "Meier"
                }
              ]
            },
            "given": [
              "Max"
            ]
          }
        ],
        "birthDate": "2021-06-01",
        "address": [
          {
            "type": "both",
            "line": [
              "Musterstr. 1"
            ],
            "_line": [
              {
                "extension": [
                  {
                    "url": "http://hl7.org/fhir/StructureDefinition/iso21090-ADXP-streetName",
                    "valueString": "Musterstr. 1"
                  }
                ]
              }
            ],
            "city": "Berlin",
            "postalCode": "10623"
          }
        ]
      }
    },
    {
      "fullUrl": "https://e-rezept.de/Practitioner/4ffde3c1-dc01-4cb5-aa7d-769ef1c9daca",
      "resource": {
        "resourceType": "Practitioner",
        "id": "4ffde3c1-dc01-4cb5-aa7d-769ef1c9daca",
        "meta": {
          "profile": [
            "https://fhir.kbv.de/StructureDefinition/KBV_PR_FOR_Practitioner|1.0.3"
          ]
        },
        "identifier": [
          {
            "type": {
              "coding": [
                {
                  "system": "http://terminology.hl7.org/CodeSystem/v2-0203",
                  "code": "LANR"
                }
              ]
            },
            "system": "https://fhir.kbv.de/NamingSystem/KBV_NS_Base_ANR",
            "value": "838382202"
          }
        ],
        "name": [
          {
            "use": "official",
            "family": "Topp-Glücklich",
            "_family": {
              "extension": [
                {
                  "url": "http://hl7.org/fhir/StructureDefinition/humanname-own-name",
                  "valueString": "Topp-Glücklich"
                }
              ]
            },
            "given": [
              "Hans"
            ],
            "prefix": [
              "Dr. med."
            ],
            "_prefix": [
              {
                "extension": [
                  {
                    "url": "http://hl7.org/fhir/StructureDefinition/iso21090-EN-qualifier",
                    "valueCode": "AC"
                  }
                ]
              }
            ]
          }
        ],
        "qualification": [
          {
            "code": {
              "coding": [
                {
                  "system": "https://fhir.kbv.de/CodeSystem/KBV_CS_FOR_Qualification_Type",
                  "code": "00"
                }
              ]
            }
          },
          {
            "code": {
              "text": "Hausarzt"
            }
          }
        ]
      }
    },
    {
      "fullUrl": "https://e-rezept.de/PractitionerRole/6e7d04be-4015-4b6e-a533-1f50536e7f91",
      "resource": {
        "resourceType": "PractitionerRole",
        "id": "6e7d04be-4015-4b6e-a533-1f50536e7f91",
        "meta": {
          "profile": [
            "https://fhir.kbv.de/StructureDefinition/KBV_PR_FOR_PractitionerRole|1.0.3"
          ]
        },
        "practitioner": {
          "reference": "Practitioner/4ffde3c1-dc01-4cb5-aa7d-769ef1c9daca"
        },
        "organization": {
          "identifier": {
            "system": "http://fhir.de/NamingSystem/asv/teamnummer",
            "value": "003456789"
          }
        }
      }
    }
  ],
  "signature": {
    "type": [
      {
        "system": "https://prescriptionserver.telematik/signature/verification",
        "code": "1.2.840.10065.1.12.1.5"
      }
    ],
    "when": "2021-06-01T14:49:35.160+00:00",
    "who": {
      "reference": "https://gematik.erppre.de:443/Device/Device"
    },
    "sigFormat": "application/jose",
    "data": "..XkuffLxgw-avvYeBMyoKcFW7RJ98s02b8BvnnSI-eE6M31sRGj0xGmDLPJ2CiH_uISu3gjrOCZI9ag9Fk-5eEQ",
    "targetFormat": "application/fhir+json"
  }
}
