<Bundle xmlns="http://hl7.org/fhir">
  <!--  Beispiel-Bundle Freitextverordnung als Sprechstundenbedarf  -->
  <id value="85d581e4-0153-4899-9bfa-f78d36ad8d82" />
  <meta>
    <profile value="https://fhir.kbv.de/StructureDefinition/KBV_PR_ERP_Bundle|1.0.2" />
  </meta>
  <identifier>
    <system value="https://gematik.de/fhir/NamingSystem/PrescriptionID" />
    <value value="1234567893" />
  </identifier>
  <type value="document" />
  <timestamp value="2020-05-04T08:30:00Z" />
  <entry>
    <fullUrl value="http://pvs.praxis-topp-gluecklich.local/fhir/Composition/f965cb71-b3e9-4ab6-9209-333f39da3b20" />
    <resource>
      <Composition>
        <id value="f965cb71-b3e9-4ab6-9209-333f39da3b20" />
        <meta>
          <profile value="https://fhir.kbv.de/StructureDefinition/KBV_PR_ERP_Composition|1.0.2" />
        </meta>
          <extension url="https://fhir.kbv.de/StructureDefinition/KBV_EX_FOR_Legal_basis">
              <valueCoding>
                  <system value="https://fhir.kbv.de/CodeSystem/KBV_CS_SFHIR_KBV_STATUSKENNZEICHEN" />
                  <code value="00" />
              </valueCoding>
          </extension>
        <status value="final" />
        <type>
          <coding>
            <system value="https://fhir.kbv.de/CodeSystem/KBV_CS_SFHIR_KBV_FORMULAR_ART" />
            <code value="e16A" />
          </coding>
        </type>
          <subject>
              <reference value="Patient/9774f67f-a238-4daf-b4e6-679deeef3811"/>
          </subject>
        <date value="2020-05-04T08:00:00Z" />
        <author>
          <reference value="Practitioner/20597e0e-cb2a-45b3-95f0-dc3dbdb617c3" />
          <type value="Practitioner" />
        </author>
        <author>
          <type value="Device" />
          <identifier>
            <system value="https://fhir.kbv.de/NamingSystem/KBV_NS_FOR_Pruefnummer" />
            <value value="Y/400/1910/36/346" />
          </identifier>
        </author>
        <title value="elektronische Arzneimittelverordnung" />
        <custodian>
          <reference value="Organization/cf042e44-086a-4d51-9c77-172f9a972e3b" />
        </custodian>
        <section>
          <code>
            <coding>
              <system value="https://fhir.kbv.de/CodeSystem/KBV_CS_ERP_Section_Type" />
              <code value="Prescription" />
            </coding>
          </code>
          <entry>
              <!--  Referenz auf Verordnung (MedicationRequest)  -->
            <reference value="MedicationRequest/931e9384-1b80-41f0-a40b-d2ced5e6d856" />
          </entry>
        </section>
      <section>
          <code>
              <coding>
                  <system value="https://fhir.kbv.de/CodeSystem/KBV_CS_ERP_Section_Type" />
                  <code value="Coverage" />
              </coding>
          </code>
          <entry>
              <!--  Referenz auf Krankenkasse/KostentrĂ¤ger   -->
              <reference value="Coverage/1b1ffb6e-eb05-43d7-87eb-e7818fe9661a" />
          </entry>
      </section>
      </Composition>
    </resource>
  </entry>
  <entry>
      <fullUrl value="http://pvs.praxis-topp-gluecklich.local/fhir/MedicationRequest/931e9384-1b80-41f0-a40b-d2ced5e6d856" />
      <resource>
          <MedicationRequest>
              <!-- Beispiel MedicationRequest für eine Rezepturverordnung  -->
              <id value="931e9384-1b80-41f0-a40b-d2ced5e6d856" />
              <meta>
                  <profile value="https://fhir.kbv.de/StructureDefinition/KBV_PR_ERP_Prescription|1.0.2" />
              </meta>
              <extension url="https://fhir.kbv.de/StructureDefinition/KBV_EX_ERP_StatusCoPayment">
                  <valueCoding>
                      <system value="https://fhir.kbv.de/CodeSystem/KBV_CS_ERP_StatusCoPayment" />
                      <code value="0" />
                  </valueCoding>
              </extension>
              <extension url="https://fhir.kbv.de/StructureDefinition/KBV_EX_ERP_EmergencyServicesFee">
                  <valueBoolean value="false" />
              </extension>
              <extension url="https://fhir.kbv.de/StructureDefinition/KBV_EX_ERP_BVG">
                  <valueBoolean value="false" />
              </extension>
              <extension url="https://fhir.kbv.de/StructureDefinition/KBV_EX_ERP_Multiple_Prescription">
                  <extension url="Kennzeichen">
                      <valueBoolean value="true" />
                  </extension>
                  <extension url="Nummerierung">
                      <valueRatio>
                          <numerator>
                              <value value="2" />
                          </numerator>
                          <denominator>
                              <value value="4" />
                          </denominator>
                      </valueRatio>
                  </extension>
              </extension>
              <status value="active" />
              <intent value="order" />
              <medicationReference>
                  <reference value="Medication/a0553ad5-56bc-446c-91de-70f0260b4e7a" />
              </medicationReference>
              <subject>
                  <reference value="Patient/9774f67f-a238-4daf-b4e6-679deeef3811" />
              </subject>
              <authoredOn value="2020-02-03" />
              <requester>
                  <reference value="Practitioner/20597e0e-cb2a-45b3-95f0-dc3dbdb617c3" />
              </requester>
              <insurance>
                  <reference value="Coverage/1b1ffb6e-eb05-43d7-87eb-e7818fe9661a" />
              </insurance>
              <dosageInstruction>
                  <patientInstruction value="Dummy-Gebrauchsanweisung der Rezeptur f&#252;r den Patienten" />
              </dosageInstruction>
              <dispenseRequest>
                  <quantity>
                      <value value="1" />
                      <system value="http://unitsofmeasure.org" />
                      <code value="{Package}" />
                  </quantity>
              </dispenseRequest>
              <substitution>
                  <allowedBoolean value="false" />
              </substitution>
          </MedicationRequest>
      </resource>
  </entry>
  <entry>
    <fullUrl value="http://pvs.praxis-topp-gluecklich.local/fhir/Medication/a0553ad5-56bc-446c-91de-70f0260b4e7a" />
    <resource>
      <Medication>
        <id value="a0553ad5-56bc-446c-91de-70f0260b4e7a" />
        <meta>
          <profile value="https://fhir.kbv.de/StructureDefinition/KBV_PR_ERP_Medication_FreeText|1.0.2" />
        </meta>
        <extension url="https://fhir.kbv.de/StructureDefinition/KBV_EX_ERP_Medication_Category">
          <valueCoding>
            <system value="https://fhir.kbv.de/CodeSystem/KBV_CS_ERP_Medication_Category" />
            <code value="00" />
          </valueCoding>
        </extension>
        <extension url="https://fhir.kbv.de/StructureDefinition/KBV_EX_ERP_Medication_Vaccine">
          <valueBoolean value="true" />
        </extension>
        <code>
          <coding>
            <system value="https://fhir.kbv.de/CodeSystem/KBV_CS_ERP_Medication_Type" />
            <code value="freitext" />
          </coding>
          <text value="Dummy-Impfstoff als Freitext" />
        </code>
      </Medication>
    </resource>
  </entry>
    <entry>
        <fullUrl value="http://pvs.praxis-topp-gluecklich.local/fhir/Patient/9774f67f-a238-4daf-b4e6-679deeef3811"/>
        <resource>
            <Patient>
                <id value="9774f67f-a238-4daf-b4e6-679deeef3811"/>
                <meta>
                    <profile value="https://fhir.kbv.de/StructureDefinition/KBV_PR_FOR_Patient|1.0.3"/>
                </meta>
                <identifier>
                    <type>
                        <coding>
                            <system value="http://fhir.de/CodeSystem/identifier-type-de-basis"/>
                            <code value="GKV"/>
                        </coding>
                    </type>
                    <system value="http://fhir.de/NamingSystem/gkv/kvid-10"/>
                    <value value="X234567891"/>
                </identifier>
                <name>
                    <use value="official"/>
                    <family value="Ludger K&#246;nigsstein">
                        <extension url="http://hl7.org/fhir/StructureDefinition/humanname-own-name">
                            <valueString value="K&#246;nigsstein"/>
                        </extension>
                    </family>
                    <given value="Ludger"/>
                </name>
                <birthDate value="1935-06-22"/>
                <address>
                    <type value="both"/>
                    <line value="Musterstr. 1">
                        <extension url="http://hl7.org/fhir/StructureDefinition/iso21090-ADXP-houseNumber">
                            <valueString value="1"/>
                        </extension>
                        <extension url="http://hl7.org/fhir/StructureDefinition/iso21090-ADXP-streetName">
                            <valueString value="Musterstr."/>
                        </extension>
                    </line>
                    <city value="Berlin"/>
                    <postalCode value="10623"/>
                </address>
            </Patient>
        </resource>
    </entry>
    <entry>
        <fullUrl value="http://pvs.praxis-topp-gluecklich.local/fhir/Coverage/1b1ffb6e-eb05-43d7-87eb-e7818fe9661a" />
        <resource>
            <Coverage>
                <id value="1b1ffb6e-eb05-43d7-87eb-e7818fe9661a" />
                <meta>
                    <profile value="https://fhir.kbv.de/StructureDefinition/KBV_PR_FOR_Coverage|1.0.3" />
                </meta>
                <extension url="http://fhir.de/StructureDefinition/gkv/besondere-personengruppe">
                    <valueCoding>
                        <system value="https://fhir.kbv.de/CodeSystem/KBV_CS_SFHIR_KBV_PERSONENGRUPPE" />
                        <code value="00" />
                    </valueCoding>
                </extension>
                <extension url="http://fhir.de/StructureDefinition/gkv/dmp-kennzeichen">
                    <valueCoding>
                        <system value="https://fhir.kbv.de/CodeSystem/KBV_CS_SFHIR_KBV_DMP" />
                        <code value="00" />
                    </valueCoding>
                </extension>
                <extension url="http://fhir.de/StructureDefinition/gkv/wop">
                    <valueCoding>
                        <system value="https://fhir.kbv.de/CodeSystem/KBV_CS_SFHIR_ITA_WOP" />
                        <code value="03" />
                    </valueCoding>
                </extension>
                <extension url="http://fhir.de/StructureDefinition/gkv/versichertenart">
                    <valueCoding>
                        <system value="https://fhir.kbv.de/CodeSystem/KBV_CS_SFHIR_KBV_VERSICHERTENSTATUS" />
                        <code value="1" />
                    </valueCoding>
                </extension>
                <status value="active" />
                <type>
                    <coding>
                        <system value="http://fhir.de/CodeSystem/versicherungsart-de-basis" />
                        <code value="GKV" />
                    </coding>
                </type>
                <beneficiary>
                    <reference value="Patient/9774f67f-a238-4daf-b4e6-679deeef3811" />
                </beneficiary>
                <payor>
                    <identifier>
                        <system value="http://fhir.de/NamingSystem/arge-ik/iknr" />
                        <value value="104212059" />
                    </identifier>
                    <display value="AOK Rheinland/Hamburg" />
                </payor>
            </Coverage>
        </resource>
    </entry>
  <entry>
    <fullUrl value="http://pvs.praxis-topp-gluecklich.local/fhir/Practitioner/20597e0e-cb2a-45b3-95f0-dc3dbdb617c3" />
    <resource>
      <Practitioner>
        <id value="20597e0e-cb2a-45b3-95f0-dc3dbdb617c3" />
        <meta>
          <profile value="https://fhir.kbv.de/StructureDefinition/KBV_PR_FOR_Practitioner|1.0.3" />
        </meta>
        <identifier>
          <type>
            <coding>
              <system value="http://terminology.hl7.org/CodeSystem/v2-0203" />
              <code value="LANR" />
            </coding>
          </type>
          <system value="https://fhir.kbv.de/NamingSystem/KBV_NS_Base_ANR" />
          <value value="838382202" />
        </identifier>
        <name>
          <use value="official" />
          <family value="Topp-Gl&#252;cklich">
            <extension url="http://hl7.org/fhir/StructureDefinition/humanname-own-name">
              <valueString value="Topp-Gl&#252;cklich" />
            </extension>
          </family>
          <given value="Hans" />
          <prefix value="Dr. med.">
            <extension url="http://hl7.org/fhir/StructureDefinition/iso21090-EN-qualifier">
              <valueCode value="AC" />
            </extension>
          </prefix>
        </name>
        <qualification>
          <code>
            <coding>
              <system value="https://fhir.kbv.de/CodeSystem/KBV_CS_FOR_Qualification_Type" />
              <code value="00" />
            </coding>
          </code>
        </qualification>
        <qualification>
          <code>
            <text value="Hausarzt" />
          </code>
        </qualification>
      </Practitioner>
    </resource>
  </entry>
  <entry>
    <fullUrl value="http://pvs.praxis-topp-gluecklich.local/fhir/Organization/cf042e44-086a-4d51-9c77-172f9a972e3b" />
    <resource>
      <Organization>
        <id value="cf042e44-086a-4d51-9c77-172f9a972e3b" />
        <meta>
          <profile value="https://fhir.kbv.de/StructureDefinition/KBV_PR_FOR_Organization|1.0.3" />
        </meta>
        <identifier>
          <type>
            <coding>
              <system value="http://terminology.hl7.org/CodeSystem/v2-0203" />
              <code value="BSNR" />
            </coding>
          </type>
          <system value="https://fhir.kbv.de/NamingSystem/KBV_NS_Base_BSNR" />
          <value value="031234567" />
        </identifier>
        <name value="Hausarztpraxis Dr. Topp-Gl&#252;cklich" />
        <telecom>
          <system value="phone" />
          <value value="0301234567" />
        </telecom>
        <address>
          <type value="both" />
          <line value="Musterstr. 2">
            <extension url="http://hl7.org/fhir/StructureDefinition/iso21090-ADXP-houseNumber">
              <valueString value="2" />
            </extension>
            <extension url="http://hl7.org/fhir/StructureDefinition/iso21090-ADXP-streetName">
              <valueString value="Musterstr." />
            </extension>
          </line>
          <city value="Berlin" />
          <postalCode value="10623" />
        </address>
      </Organization>
    </resource>
  </entry>
</Bundle>