<Parameters xmlns="http://hl7.org/fhir">
   <id value="2e238b0c-828c-4304-9ba0-09d1964a33f4"/>
   <meta>
      <profile value="https://gematik.de/fhir/epa-medication/StructureDefinition/epa-op-provide-dispensation-input-parameters"/>
   </meta>
   <parameter>
      <name value="dispensation"/>
      <part>
         <name value="medicationDispense"/>
         <resource>
            <MedicationDispense xmlns="http://hl7.org/fhir">
               <id value="f7cf6b5c-039f-4a1c-8e47-43b6bae93fc9"/>
               <meta>
                  <profile value="https://gematik.de/fhir/epa-medication/StructureDefinition/epa-medication-dispense"/>
               </meta>
               <identifier>
                  <system value="https://gematik.de/fhir/erp/NamingSystem/GEM_ERP_NS_PrescriptionId"/>
                  <value value="160.000.226.436.564.86"/>
               </identifier>
               <status value="completed"/>
               <category>
                  <coding>
                     <system value="https://gematik.de/fhir/epa-medication/CodeSystem/EPAMedicationDispenseCategoryCS"/>
                     <code value="prescription"/>
                     <display value="prescription dispense"/>
                  </coding>
               </category>
               <medicationReference>
                  <reference value="Medication/61fea9a1-d2cd-4b06-84d4-4ab1921a206b"/>
               </medicationReference>
               <subject>
                  <identifier>
                     <system value="http://fhir.de/sid/gkv/kvid-10"/>
                     <value value="X110474905"/>
                  </identifier>
               </subject>
               <performer>
                  <actor>
                     <reference value="Organization/7ce8455a-c890-46ea-8867-95e0e9512634"/>
                  </actor>
               </performer>
               <whenHandedOver value="2024-07-02T11:15:00+02:00"/>
               <dosageInstruction>
                  <text value="Dj"/>
               </dosageInstruction>
            </MedicationDispense>
         </resource>
      </part>
      <part>
         <name value="medication"/>
         <resource>
            <Medication xmlns="http://hl7.org/fhir">
               <id value="61fea9a1-d2cd-4b06-84d4-4ab1921a206b"/>
               <meta>
                  <profile value="https://gematik.de/fhir/epa-medication/StructureDefinition/epa-medication"/>
               </meta>
               <extension url="https://gematik.de/fhir/epa-medication/StructureDefinition/drug-category-extension">
                  <valueCoding>
                     <system value="https://gematik.de/fhir/epa-medication/CodeSystem/epa-drug-category-cs"/>
                     <code value="00"/>
                  </valueCoding>
               </extension>
               <extension url="https://gematik.de/fhir/epa-medication/StructureDefinition/medication-id-vaccine-extension">
                  <valueBoolean value="false"/>
               </extension>
               <extension url="http://fhir.de/StructureDefinition/normgroesse">
                  <valueCode value="N3"/>
               </extension>
               <code>
                  <coding>
                     <system value="http://fhir.de/CodeSystem/ifa/pzn"/>
                     <code value="02532741"/>
                  </coding>
                  <text value="L Thyroxin 75 Henning"/>
               </code>
               <form>
                  <coding>
                     <system value="https://fhir.kbv.de/CodeSystem/KBV_CS_SFHIR_KBV_DARREICHUNGSFORM"/>
                     <code value="TAB"/>
                  </coding>
               </form>
               <amount>
                  <numerator>
                     <extension url="https://gematik.de/fhir/epa-medication/StructureDefinition/medication-packaging-size-extension">
                        <valueString value="100"/>
                     </extension>
                     <unit value="St"/>
                  </numerator>
                  <denominator>
                     <value value="1"/>
                  </denominator>
               </amount>
            </Medication>
         </resource>
      </part>
   </parameter>
   <parameter>
      <name value="performerInstitution"/>
      <resource>
         <Organization xmlns="http://hl7.org/fhir">
            <id value="7ce8455a-c890-46ea-8867-95e0e9512634"/>
            <meta>
               <profile value="https://gematik.de/fhir/directory/StructureDefinition/OrganizationDirectory"/>
               <tag>
                  <system value="https://gematik.de/fhir/directory/CodeSystem/Origin"/>
                  <code value="ldap"/>
               </tag>
            </meta>
            <identifier>
               <system value="https://gematik.de/fhir/sid/telematik-id"/>
               <value value="3-abc-1234567890"/>
            </identifier>
            <type>
               <coding>
                  <system value="https://gematik.de/fhir/directory/CodeSystem/OrganizationProfessionOID"/>
                  <code value="1.2.276.0.76.4.58"/>
               </coding>
            </type>
            <name value="E. Ville"/>
         </Organization>
      </resource>
   </parameter>
</Parameters>